Folder: laboratorio-6-y-7/TGA

Note: README.md
# Laboratorio VI y VII (2020)

## Estudiantes
- Carolina Adriana Iacovone (LU: 120/17): caro_iacovone@hotmail.com
- Yulita Federico (LU: 351/17): federico_yulita@hotmail.com

## Directores
- Dr. Lucas Guz (Instituto de Investigación e Ingeniería Ambiental, IIIA, CONICET-UNSAM), lguz@unsam.ecu.ar
- Dra. Lucía Famá (Laboratorio de Polímeros y Materiales Compuestos, LP&MC, DF, FCEyN, UBA), lfama@df.uba.ar

## Lugar de trabajo
- Instituto de Investigación e Ingeniería Ambiental, IIIA, UNSAM
- Laboratorio de Polímeros y Materiales Compuestos, LP&MC, DF, FCEyN, UBA

## Tema
Desarrollo de un protocolo para determinar la biodegradabilidad en diferentes ambientes de películas de almidón elaboradas por extrusión. Efecto de la composición del material en la biodegradabilidad.

## Resumen
Según el programa de la ONU para el medio ambiente, actualmente se generan a nivel mundial 300 millones de toneladas de residuos plásticos por año. El 93% de dichos residuos son descartados en rellenos sanitarios y cursos de agua generando un serio problema ambiental. Con vistas a la mitigación de este problema, existe una clara tendencia hacia prácticas relacionadas con el reciclaje de este tipo de residuos. Sin embargo, solo el 14 % de los residuos plásticos se recolecta para reciclaje. Además, el proceso de reciclaje puede realizarse solo un número limitado de veces sobre el mismo sustrato, y es aplicable sólo en determinados casos. Esto condujo a un crecimiento de los plásticos y compuestos denominados biodegradables en Europa y Asia, en particular para objetos descartables ó de pocos usos (bolsas, cubiertos, vasos, etc.).

Las definiciones biodegradables y/o compostables de estos materiales se aplican en base al resultado de ensayos protocolizados de duración fija. Existen ensayos estandarizados para determinar la biodegradabilidad de materiales poliméricos bajo diferentes condiciones ambientales, como puede ser en compostaje, suelos, medio líquido ó condiciones anaeróbicas. La Universidad Nacional de San Martín, en conjunto con la UBA, ha diseñado y puesto en marcha un equipo para determinar la biodegradabilidad de materiales poliméricos en condiciones de compostaje industrial. Sin embargo, en la Argentina, no existen actualmente equipos en funcionamiento capaces de determinar la biodegradabilidad de polímeros en otros ambientes.

Por otra parte, cabe destacar que en algunos casos los ensayos estandarizados no contemplan las características morfológicas del material ni el efecto de componentes minoritarios. Estas variables pueden afectar negativamente en la biodegradabilidad de dicho material. Un ejemplo notable en este sentido son las nanopartículas con efecto bactericida. La presencia de estas cargas como componentes minoritarios cambia notablemente las propiedades físico-químicas del material final (por ejemplo su cristalinidad e hidroboficidad), y si presentan propiedades bactericidas o bacteriostáticas pueden retrasar notablemente la velocidad de biodegradación. 

File: TPS-NPTiO2.txt
[TA Ascii File]
DTG-60

File Name :	C:\TAData\Caro Iacovone\TPS-NPTiO2.txt

[File Information]
File Name:	TPS-NPTiO2.tad
Sample Name:	TPS-NPTiO2
Lot No:	001
Acquire Date:	22/03/22
Acquire Time:	15:33:16(-0300)
Detector Type:	DTG-60
Detector Serial No:	C30564800519TK
Operator:	Carolina Iacovone
Atmosphere:	Nitrogen
Gas Flow:	30[ml/min]
Annotation:
Pan Name:	Aluminum
Sample Weight:	7.620[mg]
Molecular Weight:	0.00

[Measurements Program]
[Temperature Program]
Start Temp.
Temp. Rate	Hold Temp.	Hold Time	Gas
[ C/min  ]	[   C  ]	[ min  ]
3.00	30.0	10
10.00	450.0	0

[Data]
Time	Temp	DTA	TGA
sec	C	uV	mg
0.000000	28.7872	-2.219669	7.620259
11	28.9261	-2.240595	7.624232
22	29.1759	-2.611280	7.618870
33	29.38	-2.863854	7.611820
44	29.5332	-2.895555	7.617183
55	29.6664	-2.831921	7.607650
66	29.7371	-2.752164	7.610928
77	29.792	-2.653994	7.611921
88	29.8571	-2.551455	7.610332
99	29.9273	-2.461401	7.611027
110	29.9718	-2.377063	7.612219
121	29.9817	-2.303521	7.606658
132	29.9937	-2.230033	7.610134
143	30.0229	-2.160386	7.602090
154	30.0458	-2.102160	7.607751
165	30.0706	-2.048546	7.603282
176	30.0428	-1.999111	7.602686
187	30.0488	-1.958023	7.600005
198	30.0575	-1.919738	7.604374
209	30.0797	-1.882766	7.608446
220	30.0718	-1.848486	7.600502
231	30.0443	-1.814475	7.606063
242	30.0563	-1.801040	7.607850
253	30.0646	-1.767403	7.606063
264	30.0714	-1.745266	7.605069
275	30.0487	-1.721552	7.603679
286	30.0255	-1.699517	7.591961
297	30.0334	-1.679653	7.594941
308	30.0471	-1.663594	7.599707
319	30.0552	-1.649558	7.600303
330	30.0254	-1.634527	7.601495
341	30.0097	-1.616022	7.588684
352	30.0144	-1.599504	7.596430
363	30.018	-1.586291	7.591862
374	30.0352	-1.583385	7.594742
385	29.9943	-1.574070	7.593451
396	29.9895	-1.557201	7.584116
407	30.0022	-1.543153	7.589876
418	30.0109	-1.526407	7.585606
429	30.0044	-1.519693	7.594642
440	29.9681	-1.511884	7.593649
451	29.9744	-1.499093	7.590869
462	29.9814	-1.489009	7.572398
473	30.0079	-1.474688	7.588188
484	29.9849	-1.466788	7.589081
495	29.961	-1.447390	7.587393
506	29.9677	-1.441028	7.576966
517	29.9747	-1.422973	7.586400
528	29.9873	-1.415962	7.578356
539	29.9575	-1.411497	7.587095
550	29.943	-1.403354	7.585208
561	29.9577	-1.388931	7.574980
572	29.9661	-1.374043	7.578157
583	29.9771	-1.366307	7.576370
594	29.944	-1.360198	7.582229
605	29.9305	-1.343669	7.576072
616	30.0488	-1.341237	7.574483
627	30.5017	-1.672982	7.577960
638	31.2212	-2.381853	7.573097
649	32.1568	-3.216657	7.575683
660	33.3026	-4.027689	7.577076
671	34.6193	-4.771539	7.577577
682	36.0612	-5.422435	7.562786
693	37.5937	-5.984348	7.568451
704	39.2	-6.462620	7.567960
715	40.89	-6.883009	7.570944
726	42.6222	-7.260585	7.562807
737	44.3968	-7.621628	7.561125
748	46.1812	-7.983868	7.556463
759	48.009	-8.373970	7.557662
770	49.8667	-8.795585	7.561143
781	51.7502	-9.286659	7.558965
792	53.6084	-9.689138	7.547253
803	55.4563	-10.0761	7.546166
814	57.3361	-10.4771	7.540115
825	59.2406	-10.8881	7.532673
836	61.1483	-11.3042	7.521855
847	63.0174	-11.7172	7.530501
858	64.8789	-12.11	7.514718
869	66.7797	-12.4861	7.512241
880	68.6945	-12.863	7.507382
891	70.5906	-13.2391	7.498749
902	72.4411	-13.6046	7.488924
913	74.2992	-13.9566	7.486944
924	76.1785	-14.3062	7.475530
935	78.0867	-14.642	7.470372
946	79.9866	-14.9409	7.463626
957	81.8308	-15.2122	7.446651
968	83.6838	-15.4438	7.438613
979	85.565	-15.664	7.424915
990	87.4528	-15.8301	7.423729
1001	89.3337	-15.9579	7.412018
1012	91.1696	-16.0404	7.393752
1023	93.0372	-16.0651	7.387700
1034	94.9157	-16.0484	7.360397
1045	96.8061	-15.9675	7.356034
1056	98.6881	-15.8337	7.352764
1067	100.542	-15.6284	7.343038
1078	102.411	-15.3686	7.328049
1089	104.278	-15.0517	7.308194
1100	106.161	-14.6712	7.298071
1111	108.026	-14.2438	7.283778
1122	109.887	-13.7783	7.279315
1133	111.757	-13.2558	7.266510
1144	113.63	-12.683	7.256189
1155	115.506	-12.0652	7.244874
1166	117.359	-11.365	7.229389
1177	119.244	-10.5849	7.219962
1188	121.12	-9.769975	7.199610
1199	123.006	-8.917436	7.187699
1210	124.877	-8.039224	7.183535
1221	126.737	-7.127472	7.172221
1232	128.628	-6.212243	7.160807
1243	130.521	-5.300670	7.147506
1254	132.412	-4.425749	7.136887
1265	134.274	-3.567503	7.112365
1276	136.131	-2.705069	7.101844
1287	138.019	-1.861274	7.091820
1298	139.914	-1.019188	7.090734
1309	141.791	-0.198646	7.080513
1320	143.655	0.624866	7.068304
1331	145.513	1.476456	7.058976
1342	147.41	2.376422	7.038227
1353	149.304	3.200477	7.035452
1364	151.183	3.967309	7.026522
1375	153.025	4.692012	7.017094
1386	154.91	5.401912	7.006971
1397	156.78	6.082743	6.995954
1408	158.681	6.737062	6.986825
1419	160.549	7.363749	6.976502
1430	162.392	7.964036	6.968862
1441	164.259	8.547768	6.960129
1452	166.132	9.145018	6.950701
1463	168.012	9.694456	6.943260
1474	169.864	10.1955	6.932442
1485	171.705	10.6683	6.925099
1496	173.567	11.1209	6.917657
1507	175.44	11.5769	6.911407
1518	177.315	12.0177	6.902675
1529	179.163	12.4418	6.892155
1540	181.013	12.8333	6.885706
1551	182.887	13.1789	6.878165
1562	184.76	13.4979	6.872411
1573	186.627	13.7933	6.863183
1584	188.465	14.0668	6.855741
1595	190.32	14.3104	6.847803
1606	192.178	14.5199	6.840063
1617	194.042	14.6954	6.833515
1628	195.892	14.8347	6.823391
1639	197.73	14.956	6.814361
1650	199.591	15.0584	6.805131
1661	201.451	15.1521	6.794413
1672	203.311	15.2402	6.783794
1683	205.149	15.318	6.773769
1694	206.991	15.3917	6.761661
1705	208.856	15.4498	6.753027
1716	210.713	15.4893	6.740124
1727	212.563	15.5212	6.729107
1738	214.384	15.5408	6.717295
1749	216.227	15.5616	6.705882
1760	218.086	15.5804	6.694269
1771	219.951	15.616	6.678486
1782	221.787	15.6708	6.664986
1793	223.617	15.7252	6.651586
1804	225.467	15.782	6.637491
1815	227.325	15.8219	6.620417
1826	229.19	15.8516	6.605527
1837	231.017	15.8479	6.590538
1848	232.844	15.7932	6.573761
1859	234.689	15.6504	6.555099
1870	236.54	15.4154	6.536932
1881	238.388	15.1331	6.520751
1892	240.218	14.8309	6.499307
1903	242.04	14.4061	6.474586
1914	243.879	13.9039	6.450858
1925	245.724	13.3223	6.422563
1936	247.54	12.5735	6.391188
1947	249.355	11.7831	6.359416
1958	251.169	11.0132	6.325063
1969	253.011	9.967692	6.287432
1980	254.852	9.319215	6.248014
1991	256.655	8.692893	6.207007
2002	258.496	8.284901	6.164511
2013	260.352	8.384016	6.123802
2024	262.221	8.749125	6.084384
2035	264.058	9.206553	6.045661
2046	265.885	9.536395	6.004158
2057	267.74	9.804317	5.965037
2068	269.591	9.857281	5.924428
2079	271.433	9.701622	5.880839
2090	273.241	9.397043	5.834072
2101	275.078	9.173997	5.789292
2112	276.915	9.153912	5.740440
2123	278.765	9.002034	5.691588
2134	280.599	8.983749	5.638466
2145	282.416	9.164820	5.588124
2156	284.262	9.385737	5.532420
2167	286.107	9.599757	5.478603
2178	287.934	9.266461	5.423296
2189	289.715	8.096716	5.362130
2200	291.514	6.570118	5.293516
2211	293.37	6.124016	5.224009
2222	295.31	7.906000	5.157481
2233	297.308	12.8556	5.095025
2244	299.287	19.8477	5.026710
2255	301.234	25.9147	4.946676
2266	303.145	29.8766	4.851350
2277	305.029	32.3036	4.742915
2288	306.871	33.83	4.620279
2299	308.695	34.6015	4.481656
2310	310.512	34.6344	4.327640
2321	312.322	34.0914	4.160813
2332	314.107	33.1859	3.978594
2343	315.88	32.0507	3.780487
2354	317.683	30.85	3.571455
2365	319.487	29.7904	3.356665
2376	321.308	29.0035	3.135519
2387	323.109	28.4964	2.910003
2398	324.938	28.3623	2.688261
2409	326.789	28.7293	2.466122
2420	328.672	29.6903	2.253715
2431	330.543	31.3697	2.053919
2442	332.433	33.8399	1.874581
2453	334.356	37.0335	1.720565
2464	336.294	40.6483	1.594355
2475	338.204	44.0509	1.501114
2486	340.073	46.7799	1.430216
2497	341.935	48.6327	1.377392
2508	343.798	49.791	1.338073
2519	345.653	50.6857	1.306898
2530	347.485	51.3164	1.284461
2541	349.307	51.6435	1.265202
2552	351.141	51.8112	1.248326
2563	352.974	51.884	1.232741
2574	354.797	51.9245	1.220334
2585	356.594	51.9113	1.207728
2596	358.425	51.9119	1.192540
2607	360.255	51.8925	1.183112
2618	362.086	51.9109	1.174181
2629	363.881	51.93	1.162270
2640	365.698	51.9506	1.155524
2651	367.531	51.8518	1.146096
2662	369.37	51.1301	1.134185
2673	371.179	50.0923	1.129722
2684	372.99	49.2426	1.120294
2695	374.809	48.4972	1.111462
2706	376.647	47.7255	1.104318
2717	378.462	47.1228	1.095784
2728	380.247	46.7062	1.087349
2739	382.054	46.4035	1.078914
2750	383.878	46.3951	1.075345
2761	385.706	46.477	1.065023
2772	387.499	46.4554	1.060461
2783	389.301	46.4544	1.055303
2794	391.117	46.4292	1.046173
2805	392.951	46.3959	1.035355
2816	394.774	47.2232	1.034070
2827	396.578	48.6295	1.027919
2838	398.396	49.3137	1.020875
2849	400.223	49.6185	1.016511
2860	402.025	49.7263	1.008871
2871	403.798	49.6493	1.002918
2882	405.601	49.5043	0.990114
2893	407.409	49.3328	0.980388
2904	409.21	49.0777	0.983572
2915	410.984	48.7932	0.983677
2926	412.771	48.5732	0.976235
2937	414.575	48.2644	0.974453
2948	416.382	47.952	0.969395
2959	418.166	47.6767	0.964733
2970	419.945	47.4717	0.960370
2981	421.745	47.2096	0.954517
2992	423.548	46.9582	0.952040
3003	425.344	46.6698	0.947378
3014	427.111	46.4424	0.941525
3025	428.904	46.16	0.937460
3036	430.7	45.8818	0.934784
3047	432.5	45.7002	0.931613
3058	434.264	45.5362	0.927845
3069	436.058	45.3109	0.922190
3080	437.856	45.0588	0.919912
3091	439.651	44.6895	0.919025
3102	441.404	44.2387	0.913866
3113	443.179	43.8358	0.909304
3124	444.971	43.4031	0.907225
3135	446.76	42.956	0.906138
3146	448.535	42.5384	0.900881
3157	450.301	42.0941	0.898801
3166	451.782	41.7313	0.897019

File: TPS.txt
[TA Ascii File]
DTG-60

File Name :	C:\TAData\Caro Iacovone\TPS.txt

[File Information]
File Name:	TPS.tad
Sample Name:	TPS
Lot No:	001
Acquire Date:	22/03/22
Acquire Time:	13:07:00(-0300)
Detector Type:	DTG-60
Detector Serial No:	C30564800519TK
Operator:	Carolina Iacovone
Atmosphere:	Nitrogen
Gas Flow:	30[ml/min]
Annotation:
Pan Name:	Aluminum
Sample Weight:	7.971[mg]
Molecular Weight:	0.00

[Measurements Program]
[Temperature Program]
Start Temp.
Temp. Rate	Hold Temp.	Hold Time	Gas
[ C/min  ]	[   C  ]	[ min  ]
3.00	30.0	10
10.00	450.0	0

[Data]
Time	Temp	DTA	TGA
sec	C	uV	mg
0.000000	26.9322	-2.218030	7.969227
11	27.0878	-2.246780	7.967937
22	27.437	-2.751405	7.967938
33	27.8312	-3.271550	7.961882
44	28.2312	-3.657361	7.966451
55	28.573	-3.934094	7.963573
66	28.8626	-3.993352	7.963176
77	29.1171	-3.883111	7.964170
88	29.3129	-3.691079	7.970327
99	29.438	-3.475678	7.963972
110	29.5527	-3.255197	7.957518
121	29.6571	-3.042421	7.955333
132	29.7474	-2.841249	7.963079
143	29.7973	-2.656724	7.943318
154	29.8208	-2.489596	7.950766
165	29.8648	-2.333205	7.951362
176	29.9095	-2.198473	7.948184
187	29.9345	-2.072210	7.944112
198	29.9186	-1.962688	7.944709
209	29.9344	-1.860859	7.941829
220	29.9472	-1.768015	7.943517
231	29.9664	-1.686198	7.946893
242	29.9412	-1.612181	7.940141
253	29.9295	-1.548775	7.938155
264	29.9351	-1.479467	7.936665
275	29.9455	-1.422545	7.938551
286	29.9294	-1.374882	7.933288
297	29.8933	-1.328157	7.932097
308	29.9005	-1.287651	7.925443
319	29.905	-1.246675	7.932494
330	29.9026	-1.213673	7.931997
341	29.8711	-1.180660	7.931302
352	29.8599	-1.154191	7.930508
363	29.8635	-1.118978	7.922067
374	29.8721	-1.094394	7.923060
385	29.8437	-1.076536	7.917896
396	29.8239	-1.049828	7.927032
407	29.8351	-1.032031	7.927628
418	29.8426	-1.008297	7.921670
429	29.8258	-0.988458	7.919882
440	29.7979	-0.968446	7.920577
451	29.7951	-0.947207	7.920477
462	29.8121	-0.924186	7.924450
473	29.8187	-0.917375	7.913626
484	29.7821	-0.903821	7.916406
495	29.7783	-0.885929	7.912632
506	29.7883	-0.865053	7.904887
517	29.7977	-0.850475	7.908760
528	29.7693	-0.836779	7.914718
539	29.7565	-0.817636	7.911242
550	29.7654	-0.800445	7.904986
561	29.7748	-0.785411	7.910050
572	29.7737	-0.776201	7.908362
583	29.7417	-0.764998	7.905880
594	29.7459	-0.749772	7.906376
605	29.7642	-0.733124	7.898730
616	29.7641	-0.718130	7.904092
627	29.7367	-0.710249	7.904390
638	29.7389	-0.696814	7.901212
649	29.7673	-0.685167	7.900517
660	30.0612	-0.833257	7.896149
671	30.6386	-1.545903	7.897343
682	31.4853	-2.594329	7.895260
693	32.5665	-3.722932	7.897945
704	33.822	-4.812645	7.900233
715	35.1818	-5.808375	7.893088
726	36.6583	-6.700662	7.888822
737	38.2622	-7.513888	7.888132
748	39.9458	-8.242776	7.888039
759	41.6407	-8.924188	7.894102
770	43.3568	-9.580180	7.886958
781	45.1381	-10.2013	7.889049
792	46.968	-10.8242	7.882103
803	48.8201	-11.4489	7.889160
814	50.6519	-12.1291	7.871292
825	52.4928	-12.7857	7.857792
836	54.3622	-13.3491	7.856905
847	56.2472	-13.9347	7.846583
858	58.1257	-14.5484	7.841823
869	59.9944	-15.1611	7.842424
880	61.8748	-15.7637	7.834387
891	63.7587	-16.3424	7.827442
902	65.6492	-16.913	7.817419
913	67.5059	-17.4639	7.813154
924	69.407	-17.9944	7.803826
935	71.2928	-18.4974	7.795193
946	73.1701	-18.9659	7.778317
957	75.0194	-19.4081	7.773457
968	76.8919	-19.8516	7.764228
979	78.7848	-20.2815	7.760560
990	80.6743	-20.664	7.743883
1001	82.5307	-21.0067	7.730682
1012	84.3722	-21.2905	7.714203
1023	86.2526	-21.4993	7.703783
1034	88.1525	-21.6411	7.690184
1045	90.0283	-21.7124	7.679167
1056	91.8658	-21.7158	7.670136
1067	93.7262	-21.6785	7.649785
1078	95.6013	-21.553	7.634995
1089	97.4818	-21.3535	7.620999
1100	99.3482	-21.0797	7.611770
1111	101.211	-20.7567	7.595192
1122	103.095	-20.3766	7.588644
1133	104.984	-19.9067	7.572066
1144	106.853	-19.3807	7.553205
1155	108.716	-18.8087	7.542387
1166	110.599	-18.1871	7.533455
1177	112.48	-17.5102	7.516778
1188	114.349	-16.7911	7.504371
1199	116.205	-16.0138	7.491964
1210	118.091	-15.1926	7.481643
1221	119.99	-14.3188	7.465462
1232	121.872	-13.3696	7.451566
1243	123.727	-12.3712	7.441840
1254	125.596	-11.3376	7.427944
1265	127.492	-10.2918	7.411167
1276	129.406	-9.253547	7.403825
1287	131.272	-8.222107	7.387247
1298	133.13	-7.187574	7.368186
1309	135.013	-6.178145	7.361738
1320	136.912	-5.168195	7.345955
1331	138.809	-4.176207	7.340698
1342	140.665	-3.208695	7.329582
1353	142.535	-2.277134	7.315486
1364	144.421	-1.380812	7.294838
1375	146.31	-0.499465	7.293056
1386	148.173	0.364573	7.273798
1397	150.048	1.192021	7.251559
1408	151.928	1.976143	7.234286
1419	153.816	2.727980	7.221383
1430	155.685	3.449775	7.218807
1441	157.53	4.117914	7.219707
1452	159.419	4.791662	7.211371
1463	161.296	5.446407	7.202540
1474	163.166	6.080572	7.193906
1485	165.01	6.699301	7.183187
1496	166.888	7.305001	7.171873
1507	168.781	7.900314	7.165127
1518	170.669	8.478475	7.155599
1529	172.52	9.084480	7.147760
1540	174.377	9.682735	7.139822
1551	176.256	10.263	7.132181
1562	178.143	10.8135	7.121463
1573	180.006	11.307	7.114418
1584	181.844	11.7727	7.106282
1595	183.722	12.2268	7.097649
1606	185.606	12.6913	7.091597
1617	187.483	13.1634	7.082367
1628	189.333	13.6477	7.072245
1639	191.199	14.1374	7.065995
1650	193.079	14.6434	7.056170
1661	194.954	15.1745	7.047735
1672	196.804	15.7371	7.038407
1683	198.669	16.3114	7.028383
1694	200.552	16.8921	7.016473
1705	202.438	17.4767	7.006151
1716	204.295	18.0926	6.995332
1727	206.149	18.7718	6.984911
1738	208.033	19.504	6.973398
1749	209.922	20.2472	6.959601
1760	211.786	21.0145	6.946797
1771	213.637	21.8291	6.932802
1782	215.522	22.6861	6.920096
1793	217.422	23.6141	6.906995
1804	219.307	24.5927	6.891211
1815	221.151	25.5939	6.880790
1826	223.032	26.7191	6.860836
1837	224.923	27.8985	6.843564
1848	226.833	29.101	6.827185
1859	228.665	30.2038	6.810110
1870	230.516	30.4791	6.799292
1881	232.366	30.5725	6.778245
1892	234.217	30.3405	6.758390
1903	236.035	29.8883	6.736351
1914	237.853	29.139	6.714510
1925	239.696	28.347	6.688498
1936	241.545	27.6088	6.659507
1947	243.37	27.0342	6.629622
1958	245.198	26.435	6.598247
1969	247.042	25.9522	6.566774
1980	248.898	25.5472	6.529839
1991	250.74	25.0966	6.492507
2002	252.549	24.6737	6.452194
2013	254.221	24.3929	6.412577
2024	256.069	24.0307	6.372663
2035	257.95	24.1737	6.329471
2046	259.847	25.3702	6.286578
2057	261.705	26.8495	6.245670
2068	263.581	28.4884	6.203968
2079	265.443	30.0856	6.165842
2090	267.302	30.6499	6.123345
2101	269.124	30.8755	6.080054
2112	270.875	30.0782	6.037060
2123	272.672	28.0813	5.990791
2134	274.468	25.9766	5.947102
2145	276.23	23.8034	5.897356
2156	277.979	21.3921	5.849696
2167	279.765	18.9404	5.801439
2178	281.553	16.6358	5.751792
2189	283.349	14.793	5.702642
2200	285.135	13.6456	5.650911
2211	286.946	12.5637	5.594512
2222	288.758	11.1947	5.535530
2233	290.583	10.3632	5.471783
2244	292.399	10.3213	5.406545
2255	294.293	11.6942	5.342301
2266	296.26	15.6323	5.274482
2277	298.252	21.7784	5.205670
2288	300.177	27.8893	5.129907
2299	302.09	32.6122	5.039843
2310	303.977	35.4949	4.934884
2321	305.844	36.9712	4.816420
2332	307.654	38.1633	4.684152
2343	309.476	38.3536	4.538775
2354	311.303	37.8822	4.374034
2365	313.123	36.9945	4.200753
2376	314.914	35.9501	4.005922
2387	316.725	34.891	3.799572
2398	318.542	33.9327	3.583193
2409	320.37	32.95	3.358869
2420	322.169	32.2263	3.132360
2431	323.986	31.7889	2.903468
2442	325.833	31.7413	2.672491
2453	327.693	32.2625	2.445386
2464	329.552	33.5235	2.231787
2475	331.418	35.5916	2.035368
2486	333.341	38.4735	1.857023
2497	335.288	41.3949	1.708866
2508	337.211	45.0801	1.592884
2519	339.125	49.3989	1.507290
2530	341.037	53.6036	1.439272
2541	342.936	55.1238	1.394790
2552	344.794	52.6394	1.358152
2563	346.628	51.8933	1.330651
2574	348.49	52.874	1.309604
2585	350.36	54.7363	1.289352
2596	352.304	59.066	1.274364
2607	354.167	64.2793	1.260467
2618	356.02	67.4196	1.246074
2629	357.86	69.1474	1.233766
2640	359.691	70.2618	1.220962
2651	361.499	71.2354	1.210044
2662	363.328	72.0822	1.200616
2673	365.154	72.7138	1.190096
2684	366.976	73.186	1.180668
2695	368.776	73.5564	1.170843
2706	370.586	73.729	1.160521
2717	372.41	73.7847	1.150696
2728	374.219	73.7484	1.143453
2739	376.005	73.6808	1.133727
2750	377.814	73.5231	1.131449
2761	379.633	73.3641	1.121326
2772	381.441	73.1452	1.110706
2783	383.214	72.8576	1.104257
2794	385.022	72.6179	1.097610
2805	386.844	72.3664	1.091260
2816	388.651	72.0753	1.084116
2827	390.427	71.7324	1.076773
2838	392.232	71.3925	1.071119
2849	394.046	70.9161	1.064968
2860	395.842	70.4832	1.057724
2871	397.614	70.0781	1.052467
2882	399.416	69.6361	1.046714
2893	401.228	69.1742	1.041854
2904	403.024	68.7368	1.037490
2915	404.8	68.2973	1.032531
2926	406.601	67.8946	1.026380
2937	408.414	67.5104	1.023208
2948	410.22	67.2452	1.019738
2959	411.998	66.9871	1.012793
2970	413.794	66.6351	1.007436
2981	415.602	66.3176	1.003470
2992	417.395	66.025	0.997915
3003	419.17	65.6423	0.993948
3014	420.964	65.3005	0.990975
3025	422.772	64.9377	0.985321
3036	424.569	64.6045	0.981454
3047	426.339	64.3236	0.976495
3058	428.152	63.9877	0.973918
3069	429.955	63.6355	0.970846
3080	431.746	63.2613	0.965688
3091	433.507	62.8207	0.962318
3102	435.305	62.4075	0.958053
3113	437.105	62.0719	0.953094
3124	438.886	61.6988	0.950816
3135	440.651	61.3511	0.946154
3146	442.451	60.9989	0.942883
3157	444.257	60.6725	0.937229
3168	446.034	60.3076	0.935348
3179	447.809	59.9618	0.928998
3190	449.593	59.5586	0.925926
3201	451.403	59.1774	0.921264
3203	451.702	59.0977	0.920272